<?xml version="1.0" encoding="utf-8"?>
<Bundle xmlns="http://hl7.org/fhir" xmlns:xsi="http://www.w3.org/2001/XMLSchema-instance">
  <id value="exchange-routing-bundle-1" />
  <type value="message" />
  <timestamp value="2021-03-18T00:00:00-05:00" />
  <entry>
    <fullUrl value="https://example.org/MyPharmacyApp/MessageHeader/reqheader1|12345" />
    <resource>
      <MessageHeader>
        <id value="req1" />
        <eventCoding>
          <system value="http://hl7.org/fhir/us/exchange-routing/CodeSystem/exchange-routing-temp" />
          <code value="query" />
        </eventCoding>
        <source>
          <name value="MyPharmacyApp" />
          <endpoint value="http://example.org/MyPharmacyApp|12345" />
        </source>
        <focus>
          <reference value="urn:uuid:61ebe359-bfdc-4613-8bf2-c5e300945f0b" />
        </focus>
      </MessageHeader>
    </resource>
  </entry>
  <entry>
    <fullUrl value="urn:uuid:61ebe359-bfdc-4613-8bf2-c5e300945f0b" />
    <resource>
      <Parameters>
        <id value="61ebe359-bfdc-4613-8bf2-c5e300945f0b" />
        <parameter>
          <name value="query-string" />
          <valueString value="AllergyIntolerance?clinical-status=active" />
        </parameter>
        <parameter>
          <name value="query-string" />
          <valueString value="Condition?clinical-status=active" />
        </parameter>
        <parameter>
          <name value="query-string" />
          <valueString value="Coverage" />
        </parameter>
        <parameter>
          <name value="query-string" />
          <valueString value="Observation?category=vital-signs" />
        </parameter>
        <parameter>
          <name value="query-string" />
          <valueString value="Observation?category=laboratory" />
        </parameter>
        <parameter>
          <name value="query-string" />
          <valueString value="MedicationRequest" />
        </parameter>
        <parameter>
          <name value="requester-patient" />
          <valueReference>
            <reference value="Patient/patient1" />
          </valueReference>
        </parameter>
      </Parameters>
    </resource>
  </entry>
  <entry>
    <fullUrl value="http://example.org/MyPharmacyApp/Patient/patient1|12345" />
    <resource>
      <Patient>
        <id value="patient1" />
        <text>
          <status value="generated" />
          <div xmlns="http://www.w3.org/1999/xhtml">
            <p>
              <b>Generated Narrative</b>
            </p>
            <h3>Ids</h3>
            <table class="grid">
              <tr>
                <td>-</td>
              </tr>
              <tr>
                <td>*</td>
              </tr>
            </table>
            <h3>Meta</h3>
            <table class="grid">
              <tr>
                <td>-</td>
              </tr>
              <tr>
                <td>*</td>
              </tr>
            </table>
            <p>
              <b>identifier</b>: Patient internal identifier: 540002</p>
            <p>
              <b>active</b>: true</p>
            <p>
              <b>name</b>: Tim Doe </p>
            <p>
              <b>telecom</b>: ph: 555-555-5555(HOME), <a href="mailto:tim.doe@example.com">tim.doe@example.com</a></p>
            <p>
              <b>gender</b>: male</p>
            <p>
              <b>birthDate</b>: 1987-02-20</p>
            <p>
              <b>address</b>: 2224 Century Ave Minnetonka MN 55345 US </p>
            <h3>Communications</h3>
            <table class="grid">
              <tr>
                <td>-</td>
                <td>
                  <b>Language</b>
                </td>
              </tr>
              <tr>
                <td>*</td>
                <td>
                  <span title="Codes: {urn:ietf:bcp:47 en-US}">English (Region=United States)</span>
                </td>
              </tr>
            </table>
          </div>
        </text>
        <identifier>
          <type>
            <coding>
              <system value="http://terminology.hl7.org/CodeSystem/v2-0203" />
              <code value="PI" />
              <display value="Patient internal identifier" />
            </coding>
          </type>
          <system value="http://example.org/MyPharmacyApp/patient-id|12345" />
          <value value="540002" />
        </identifier>
        <active value="true" />
        <name>
          <family value="Doe" />
          <given value="Tim" />
        </name>
        <telecom>
          <system value="phone" />
          <value value="555-555-5555" />
          <use value="home" />
        </telecom>
        <telecom>
          <system value="email" />
          <value value="tim.doe@example.com" />
        </telecom>
        <gender value="male" />
        <birthDate value="1987-02-20" />
        <address>
          <line value="2224 Century Ave" />
          <city value="Minnetonka" />
          <state value="MN" />
          <postalCode value="55345" />
          <country value="US" />
        </address>
        <communication>
          <language>
            <coding>
              <system value="urn:ietf:bcp:47" />
              <code value="en-US" />
              <display value="English (Region=United States)" />
            </coding>
          </language>
        </communication>
      </Patient>
    </resource>
  </entry>
</Bundle>